Time,Raw_AccX,Denoised_AccX,Raw_AccY,Denoised_AccY,Raw_AccZ,Denoised_AccZ
0.0,0.0523181969866638,-0.2205781449620789,-0.0501790657621921,-1.9573716895684072,0.8480502958296412,-0.0032976460318140236
0.1,-0.033697370761597,-0.23365251838512185,0.8454923742973139,-1.9335448662658552,1.0582122875642572,-0.01253122772511874
0.2,0.3079395766501053,-0.22998339728765077,1.5688881101179943,-1.813098789583176,1.1724794034318815,-0.0186892225670321
0.3,0.4380156592571448,-0.2095707816696656,2.3937875956898567,-1.59603345952037,1.0053522241139108,-0.021771630557554104
0.4,0.4220195281941185,-0.17241467153116635,3.0826658321552447,-1.2823488760774366,1.014649262483958,-0.021778451696684745
0.5,0.5750570932780585,-0.11851506687215337,4.192517419379387,-0.872045039254378,1.1205587054329655,-0.0187096859844241
0.6000000000000001,0.574704680962361,-0.04261666799335047,4.722332585534718,-0.30274642092954107,1.0431082255213535,-0.008628998974508247
0.7000000000000001,0.8136211330903771,0.05022833148055228,5.614752106421342,0.3442064144882603,1.1250381253843686,0.00415113820562741
0.8,1.1238108566913492,0.1527492220815113,6.519811222789181,1.027660549462522,1.2654206083709263,0.011311072083195876
0.9,1.1662750799347854,0.2634651572947556,7.3313247580436975,1.7379232719667352,1.135981904933563,0.020035349224059806
1.0,1.1324040469296062,0.3729823409958889,8.087515227888357,2.4663070158168763,1.0791586253972223,0.02301526322211652
1.1,1.3666469191989166,0.48109015026952395,8.754492747644877,3.21575529671652,1.1955586870692696,0.02518737195028655
1.2000000000000002,1.3639104021466173,0.5847417744162183,9.655566311989444,3.9749670150851184,1.0366068772678667,0.032687554495980924
1.3,1.4580980501370722,0.6893584461619918,10.403018575078598,4.732885947752635,0.9706777372262078,0.05042137815082858
1.4,1.6499845761707317,0.8045641754569315,11.22156825316906,5.496838393494842,1.4470885996899685,0.07295187902441402
1.5,1.7525811256466766,0.9212903376447719,11.99652323040456,6.27245689155464,1.2796861116381404,0.09758934149103818
1.6,2.174965195536167,1.038913746501959,12.774523191864192,7.05138970387501,1.1601862045555198,0.12168155199290143
1.7000000000000002,1.992861423668682,1.1600061698501052,13.46576364894776,7.829009258835118,1.2796455256234105,0.13691387749276696
1.8,2.075121040952192,1.2785820911126082,14.428110510910374,8.612333269341468,1.4518546654915925,0.14347928486599318
1.9,2.0534027782380564,1.3951144958622081,15.172141200393888,9.39705283728637,1.1401623946399384,0.1486935741900045
2.0,2.5113127129951125,1.5090419116065295,15.885477224700788,10.185204111295153,1.1443299464505765,0.14938422048574546
2.1,2.3895239980683147,1.6208463243164437,16.725038638396768,10.98402924193309,1.1771026461906604,0.15520080110797263
2.2,2.6580231833605428,1.7365578519924574,17.65273989195359,11.785339795992922,1.348205534864482,0.16863842743607127
2.3000000000000003,2.720303615092305,1.8584106372869669,18.291673597067224,12.590707626061764,1.4584816869105526,0.18975192788959244
2.4000000000000004,2.87070007050436,1.981645413110297,19.252542417753865,13.402388657503007,1.4486386551751758,0.21264985196966427
2.5,2.918109553199208,2.1055206693224666,20.10772009051682,14.215271564639473,1.341499057765976,0.23583902640272902
2.6,3.13071115983674,2.230555169725861,20.74012844778836,15.02637584575817,1.379562842005699,0.25705849651073587
2.7,3.274688746107043,2.353028873469394,21.7402639533311,15.831942635830682,1.2597916574494454,0.2719769530738101
2.8000000000000003,3.322633525292052,2.477444678808603,22.382420708819502,16.632357296129605,1.5006512639639595,0.2837576144175047
2.9000000000000004,3.5828511702425274,2.602928041672664,23.143357398520624,17.42820539513055,1.593946152825588,0.2935451786084814
3.0,3.474862697785873,2.728045425129717,24.088895324737734,18.226394191379,1.4344023449188446,0.3007108907067212
3.1,3.746514149428623,2.8524509852526823,24.6771686002978,19.024196660692777,1.3102051154241392,0.30515553590010364
3.2,3.928920549828396,2.978452193636622,25.61001198655168,19.81570006684975,1.4269868908665846,0.3080339022198549
3.3000000000000003,3.917263661652599,3.1000451888429827,26.48786696368187,20.613354633794366,1.2928858516505723,0.31056174440567635
3.4000000000000004,4.1309898444882815,3.219469260379978,27.182630295455382,21.41074331926454,1.4546539279141228,0.31390540132778555
3.5,4.278041295328401,3.339961933711847,27.92554049978003,22.208214549083372,1.4066056216479648,0.3179839767397408
3.6,4.249446394622452,3.453837052968697,28.724264285673577,23.015194944281717,1.4240264444910855,0.3228064911168894
3.7,4.334030316613482,3.5628053510670665,29.728595889807664,23.811385834475733,1.3754941909951393,0.32460727550977597
3.8,4.582970005268382,3.67990303571924,30.312525637802164,24.617102944623923,1.5438969009803056,0.3263823831994933
3.9,4.662102633606447,3.79964795401379,31.332159271830346,25.41977153981069,1.3204264799038563,0.3289306361345008
4.0,4.758959143616671,3.9264607953712822,31.974383297086423,26.227119702525258,1.4822327338505,0.3318683905857549
4.1000000000000005,4.961007751294243,4.059611168965158,32.77685619070517,27.043343150842034,1.3157951641535413,0.34067763536113316
4.2,5.166349797560944,4.194060554797446,33.673971226910936,27.85721369040267,1.5630507555251616,0.3555206185242279
4.3,5.241934100039109,4.324618707957321,34.38684685597936,28.667778620462784,1.6143526760865066,0.37416795173927353
4.4,5.283934010761901,4.4511790433688185,35.15595914966395,29.460844995290152,1.641452544300931,0.3948008569240386
4.5,5.450339131717511,4.575589872907768,36.041237467179016,30.213579777091894,1.4588514913692492,0.41756144733405115
4.6000000000000005,5.487913432720032,4.782508444572084,36.94409374990486,31.57974049460382,1.5576723687914624,0.44624865705546557
4.7,5.76535148521834,4.919347608232086,37.45165795963877,32.48360627534258,1.5830465974781425,0.46564493712117017
4.800000000000001,5.831151257599312,4.891633719090702,38.29650795468172,32.30159326750509,1.547952065518801,0.46667448689769586
4.9,5.858139781875771,4.648018603843974,39.02966535811278,30.682784705975592,1.5840736532623307,0.44483293938311164
5.0,5.857306951378343,4.1860973319702826,39.89162609228675,27.636280489457413,1.6696429025136004,0.3987660615674332
5.1000000000000005,0.0828516765918301,3.54060716524491,-0.1095977717017367,23.39936539377947,0.9118594147040706,0.3341316668455857
5.2,0.0644058003902301,2.7745195088916974,-0.1169800773289544,18.37171179938754,1.054367676243212,0.2531973508087171
5.300000000000001,-0.0583036027790846,1.9716059515296827,0.0308033694234732,13.092679942136717,1.0914856881197554,0.16307718572946156
5.4,-0.0290814144698554,1.223178886715464,0.0339936601879757,8.178070041863517,0.911870567236181,0.07664959572054776
5.5,0.0060060510911541,0.6333938796804278,-0.0100931504405768,4.2798156169091905,0.944626745244164,0.007187117977828778
5.6000000000000005,-0.0764304800484278,0.29673003502532713,-0.1338708030156668,2.073767585940992,0.8792752548577444,-0.03618311460268248
5.7,0.0228687492973568,0.05970248311840152,0.218200327254695,0.49443193957407133,0.9067518410879736,-0.06337591622985676
5.800000000000001,0.0896816619092595,-0.11188498975518685,0.1417668549931947,-0.6233555536776998,1.0358254620041074,-0.07938300359578668
5.9,-0.0692825126623176,-0.2375354188136956,-0.103526131641419,-1.4429791363725541,0.9304204778667544,-0.08411353598322158
6.0,-0.0850371055432589,-0.33165223488381246,0.012967271070982,-2.0496325974545853,1.0303422820973314,-0.08031269071817929
6.1000000000000005,-0.0248320062368851,-0.40050465004540636,-0.0756084663258722,-2.5013813906904607,1.0007149722482516,-0.07204357164152186
6.2,0.0545184264301454,-0.450005020258027,-0.0822411909019942,-2.835373862385161,1.1215011289078411,-0.06432871890315425
6.300000000000001,-0.1300117938798642,-0.4837934284490818,-0.2248976370431043,-3.0785773546005393,1.0733452630058564,-0.05917870017568921
6.4,-0.117363357657051,-0.5068379878356274,-0.1743882506405302,-3.2494381501386522,0.9298606548216544,-0.05629441551904878
6.5,-0.0162132788042114,-0.5203648908677463,-0.1153313918943246,-3.367583517156702,1.1132242938395638,-0.05618522060555328
6.6000000000000005,0.0674060829787365,-0.5260138157540866,0.1214652045970504,-3.4472994377212025,0.9668825305649807,-0.06056943834229486
6.7,0.0165582238301425,-0.529094007303557,0.2080924479488175,-3.5032863872287474,0.9770412632070252,-0.06703510452574132
6.800000000000001,-0.0255573984787497,-0.5334639272093411,0.0212002171288811,-3.5417510068237066,0.9675940670568338,-0.07276172470047562
6.9,0.0616093296543166,-0.5369095252953351,-0.1578708583317024,-3.5675780233817482,1.0550451570509007,-0.07433797388905532
7.0,-0.0380701011520416,-0.5396335097086964,-0.0516958490101151,-3.585103628858561,1.0891248925580308,-0.07012441239851816
7.1000000000000005,0.0060582764643629,-0.5447583612255964,-0.0632690601760023,-3.5961599108779856,0.9080574637184452,-0.06188150145145935
7.2,-0.0124146205305517,-0.5486902101629229,0.047476819849235,-3.6010281396935153,0.906295211996152,-0.05078027227559554
7.300000000000001,-0.0085415400829531,-0.5467550391661535,0.0627262469509908,-3.6018172422093793,1.1441678174058167,-0.03768743950761647
7.4,0.1386124700989184,-0.5408140996334909,0.0286018403248963,-3.599958315102712,1.0509792806550864,-0.026243576749018935
7.5,0.1476292912110473,-0.5331265534226518,0.1335563112719805,-3.5991443283866476,1.1098592013459254,-0.01715851782522648
7.6,-0.1014400991775255,-0.5234795464294991,-0.2317577247435664,-3.600878639606974,1.010733327559964,-0.013041130972262744
7.7,-0.0296908120144342,-0.5150576265097357,0.0370841806268334,-3.607119853365943,1.027475419492116,-0.017947965973487606
7.800000000000001,0.0620383350304077,-0.5112007549848814,-0.0761849284410755,-3.614796393704502,1.1589844516606878,-0.02989055502390678
7.9,0.1841977825725017,-0.5119944573644737,0.0310514264747998,-3.6222304619536327,0.8362287079732852,-0.045736274740848105
8.0,-0.0172908601546002,-0.5226882220321012,0.043051007516308,-3.6286945833125324,0.8620961181030005,-0.06297822149569782
8.1,-0.038528899583122,-0.5428082894918144,-0.0526033757795703,-3.6340713660630968,1.1717634643294756,-0.07884097419950264
8.200000000000001,-0.1636328262009192,-0.5648015843165629,-0.0181388057689981,-3.638441898782768,0.937246574101278,-0.08993238998857817
8.3,-0.2342438287707058,-0.5844147642827672,-0.1091414879089082,-3.6405344362207535,0.8906796601045794,-0.0957031268260265
8.4,-0.0614947345946182,-0.6022945452849185,0.0799714711627794,-3.640542540581145,1.0002262831219986,-0.09613441083632199
8.5,-0.0949277055795814,-0.6154883096631614,-0.0055226788609153,-3.6386956318108417,1.0016013055716229,-0.0896317646099534
8.6,-0.1617721392179167,-0.6197671158237738,-0.0082240968622827,-3.6352493004075788,1.0542561991503003,-0.07924120758432945
8.700000000000001,-0.120218048466994,-0.616347558633584,-0.040494745912635,-3.6291366323612992,1.121895579429951,-0.07160903981139839
8.8,0.1542557153585831,-0.6065124749139253,0.0320982816283768,-3.6232160334316,0.996942487896504,-0.06889157170612958
8.9,-0.0378225291122553,-0.5911060927841215,0.0853728157160483,-3.622220491826204,1.03310624862621,-0.07255658954300277
9.0,-0.0370697290463951,-0.5763080011182167,0.0184084197388768,-3.6301336861248528,0.8829312729870005,-0.0760509991685822
9.1,0.0524681917295686,-0.561123009225311,-0.2166267167538955,-3.6421292806486,0.949710151533615,-0.08011213412237375
9.2,0.0059821407046497,-0.548053661444728,-0.0742904389823442,-3.65358222691156,1.1398419357555172,-0.08433062991010201
9.3,0.1014728419226567,-0.538845342227557,0.0282809632472987,-3.6609098896132792,0.8730394859357751,-0.08791146999077734
9.4,-0.0151422317819412,-0.5343083361828347,-0.1100727921219323,-3.662243103316844,0.9296311508016843,-0.09099717908380617
9.5,-0.0677470666806465,-0.533559566371154,-0.1752602874983403,-3.656792983185721,1.0304763254349034,-0.09399824651666829
9.6,-0.052972738335052,-0.5348411718514934,0.0912345763004155,-3.645543357765436,1.1613633623724762,-0.09646594449519974
9.7,0.1005594302346875,-0.5370494543666893,0.0146925928241335,-3.6292621494757893,0.9261512178773575,-0.10051842821890383
9.8,-0.135792218287389,-0.5403054346648408,0.0571159968673716,-3.613581924614338,0.956101572841728,-0.10818960399562581
9.9,0.040062720247492,-0.5436764259954272,0.1117273502831486,-3.6051160850469897,0.9261719062393632,-0.1169553782687424
10.0,-0.0193352087668056,-0.5450242797486073,-0.0301071782457327,-3.6039528303242676,0.9465885541734352,-0.1207153892406227
10.1,-0.1178526477456562,-0.5411871094724534,0.031484940150865,-3.603688330069957,0.9966945137781298,-0.12349064871104039
10.2,0.0334987155864923,-0.5346491282508099,-0.0904016961331542,-3.603672785477344,0.9779217897336528,-0.12544846752704938
10.3,0.0800510596194573,-0.5279413539952814,0.073370928280351,-3.603850835005111,0.9035158900200648,-0.12894924289293602
10.4,-0.0092543200839081,-0.5225547534942585,0.0420613033007358,-3.6051419297285667,1.101969978671208,-0.1316699697435117
10.5,0.0749654022727056,-0.5216773598252842,0.0120634090607603,-3.6087446196089186,0.8369127292290737,-0.13147250300995936
10.6,0.1045702371757657,-0.5264338502942889,0.0487170054520515,-3.61599821449541,0.9971387487800244,-0.12725022903660904
10.7,-0.0783113692348737,-0.5359827443708453,-0.0221183315331695,-3.6263485238942765,0.8634884556018388,-0.11912678023140166
10.8,-0.1987985595521589,-0.5494863728174332,-0.2895096288978792,-3.639031533377011,1.1118927229866211,-0.10705529875145009
10.9,-0.0275836332641582,-0.5648393673509098,-0.1497383771541997,-3.653429080618901,1.038494894568074,-0.09152282235542918
11.0,-0.0485229816334948,-0.5801461349870671,-0.1312100620125322,-3.6665954571479755,1.0288587425529472,-0.07650315047773426
11.1,-0.1481528469118448,-0.5900984861865148,0.0211468728061099,-3.6758118504125425,1.1289707228283856,-0.06513190096874918
11.2,-0.0383587676199823,-0.5947497229206733,-0.1193179795348659,-3.6799958427757966,0.9456853384442236,-0.05980387535371187
11.3,-0.0131446553149469,-0.5964434768392305,-0.0208755210084631,-3.679994396934232,1.0413647599493343,-0.06351684671956769
11.4,0.0668233627001997,-0.592525760310901,-0.150377469084293,-3.6768588648431733,1.0347810107518307,-0.07181850063859677
11.5,-0.1346779466549625,-0.5838537644463164,-0.0242560867443817,-3.671919548357978,0.9231162024928375,-0.0800860274376382
11.6,-0.0498218806196715,-0.5705692035600588,0.1276778508915018,-3.665335629535302,1.037695307836203,-0.08387551990157524
11.7,-0.0157246002134781,-0.5524839068506271,0.0021954287620246,-3.6568352660280103,0.8477714831180346,-0.08096373112401155
11.8,0.1104726808219134,-0.5291623434106956,-0.0347540117118991,-3.6473749455184636,1.1594357734329217,-0.07277439156960852
11.9,0.1871898469022627,-0.5066716848676651,0.0796442491729153,-3.6367403324180527,1.0581702845056618,-0.06037066902011077
12.0,0.1295017689509298,-0.4913434709280292,-0.0989725557374889,-3.6280837670381505,1.014748668662122,-0.04755514777607968
12.1,0.0007654093952601,-0.48003265165676406,0.0761698554574658,-3.622011441546376,1.185303657398618,-0.0361409538641088
12.2,-0.1652232225545973,-0.47164509961657325,0.016905429110094,-3.6184723375305285,1.085565922748517,-0.02824065396022974
12.3,0.1925776403760008,-0.47022478460801964,0.0606983860215419,-3.618932182896489,1.0537397617054685,-0.028242563904068273
12.4,0.0467834281133624,-0.4721053904120995,-0.0556450845099116,-3.6230783156583524,1.0200823024866854,-0.03646635343119149
12.5,0.0765699171561922,-0.4744713382991782,-0.1092239142807161,-3.6293602347296545,0.999402218812394,-0.05057517769152012
12.6,-0.0139466575450233,-0.4766394966288757,-0.0042877630508165,-3.6364802205195685,1.025725956050518,-0.06702825203290626
12.7,0.1017351113493578,-0.47713421791817545,0.0615569840003535,-3.6436500828639327,0.8652403899791088,-0.08252526469550714
12.8,0.1170412982351803,-0.474879181394978,0.013478022640768,-3.6502810744780287,0.9921619710673146,-0.09551378675183447
12.9,-0.0923582893148585,-0.473493005952599,-0.3481467220317199,-3.6552330746541313,0.8095386553206148,-0.10410701193168406
13.0,0.0943997327033981,-0.47423982950980265,0.0511427656428153,-3.6610946230744563,1.0318336492741065,-0.10934419310692815
13.1,0.1360285809924035,-0.47227465272202995,0.0301323480981785,-3.666347795280306,1.030139474581354,-0.11153491839183051
13.2,0.0672948420478285,-0.4700846649787285,-0.0322199475809366,-3.6701735534735915,0.961286393376558,-0.11233173670365869
13.3,0.0780279358335708,-0.47243640081492255,-0.1440144495521168,-3.672581034846849,1.0013031905234324,-0.11459539506338029
13.4,0.0616278417211265,-0.4792043270175051,-0.0916785638258939,-3.6725774467813506,0.9105521394275264,-0.11916823353848796
13.5,0.0743225732684161,-0.4883954302721558,0.0024346761851579,-3.66934015956398,0.8962691137641219,-0.1272323035393549
13.6,-0.0287229631783779,-0.5003429446137351,-0.0311629445049645,-3.6644132410828565,0.9346543144067472,-0.13655993774410602
13.7,-0.1321035204007705,-0.5122507389598563,-0.0123691478540396,-3.658457411440601,0.8513954279484771,-0.14383639651496707
13.8,-0.0990086264682129,-0.521753404177421,-0.0052659703181537,-3.652164247866203,0.9433041325539008,-0.14713205179343863
13.9,0.0148320612159086,-0.5271371403099467,-0.0677969921105889,-3.6469149102542113,0.9326797270352024,-0.14641530458226487
14.0,0.0080452796553763,-0.5257235803682787,-0.0137040896675276,-3.6430602108583674,0.9397803689672956,-0.1420834873943843
14.1,0.1194060992066542,-0.5170518413511525,-0.0206170806751844,-3.6366307122134565,0.9558642980557888,-0.13453866425110825
14.2,0.1827801947679871,-0.5122790363971652,0.0485911420696752,-3.6320136223986754,1.020683968272717,-0.12437942246323877
14.3,0.0178053574818031,-0.5126013547969407,-0.0039449783424428,-3.6309049295085325,0.9418512223717525,-0.11239308432357295
14.4,-0.1093526177334759,-0.5170583336997432,-0.0545233338094765,-3.6321097427017546,1.0491448240589734,-0.10003405282125993
14.5,-0.1841438501290377,-0.5249875828986627,-0.1384641513000901,-3.633223033591481,1.0409818664177448,-0.08895871932639723
14.6,0.249171049408058,-0.5355933206406072,0.0798116589637513,-3.631955122645844,1.0757287727065472,-0.07877769493183515
14.7,-0.0452132110762587,-0.5454125309907436,0.0403032425002766,-3.626887426241904,1.0118264524939666,-0.07068409780190056
14.8,-0.1496908769176252,-0.5528012626349936,-0.054429882535201,-3.616107432698147,1.0252283471223076,-0.06493375004130855
14.9,0.1043404554068799,-0.5556928100104891,-0.082852381100312,-3.602186034811116,1.0310977488444175,-0.06278127682116387
15.0,-0.0369574531958798,-0.5523511536006781,0.2412228324000451,-3.5864862461268787,0.9929985584713336,-0.06441786186431689
15.1,0.0321595206223703,-0.5459473515337042,0.0850599073717523,-3.571995374482408,1.039017053330192,-0.06884910516281215
15.2,-0.0268422913148944,-0.5422869537529533,0.126289890943032,-3.56714597344925,0.9570302007756868,-0.0750753391756181
15.3,0.0201697661330649,-0.5380878697798118,0.0253386299901234,-3.570114066570338,0.8293947701261505,-0.08092776311535599
15.4,0.0871768633401071,-0.5335803591151509,-0.0629082919353604,-3.579745521075684,1.0725217490307075,-0.08496632021407408
15.5,-0.0050705904086085,-0.5296963823581908,0.0494440639769549,-3.594467463367084,0.8907990134108966,-0.0851773024952702
15.6,0.0659391608550996,-0.5280488202744907,-0.1548742867861643,-3.60984887804792,1.0573206342332542,-0.08137995329948208
15.7,-0.0810050103765878,-0.5253890102798452,0.0130633108228337,-3.6229261804617447,1.0470608719143562,-0.07682431761659253
15.8,0.0889331214714257,-0.5204114092349039,0.0156780770373491,-3.63153177022562,1.1570016229732314,-0.0738211061323373
15.9,0.0127562028222203,-0.5104099393018748,0.0628827861448111,-3.636214430526067,1.028714750686715,-0.07307740835376239
16.0,-0.0194072416384679,-0.498483631957263,-0.1872700129943184,-3.6374242081024,0.9283568999381492,-0.07695303612491283
16.1,0.1258123388005708,-0.4870445824814359,0.0139784401878847,-3.6379227604311724,1.025749846315269,-0.0830936615627221
16.2,0.2195554813408469,-0.4771027610982974,-0.0253550795688841,-3.635227478404926,0.8887070752290797,-0.08991647141128592
16.3,0.1409898432228123,-0.46984900241818606,0.0321644689251795,-3.6258848667093253,0.9406672407917606,-0.09383526015677718
16.400000000000002,0.0244537841594922,-0.46738611194914426,0.0741358096710064,-3.6134396986262742,0.9638753072579356,-0.09632210672942149
16.5,0.0308288065649286,-0.4697550809425768,0.1722601109142006,-3.5995739253529875,1.0941912915911411,-0.09552379895097268
16.6,0.0151375876451057,-0.47618680371527816,-0.0758009304258263,-3.582388773114161,0.9502196131519136,-0.09119476903151331
16.7,0.1818655507544083,-0.4842195926450532,0.0878799565626256,-3.566839850823201,1.030821343821094,-0.08717774798336045
16.8,0.0586021824399223,-0.4914396876876547,0.1080707584124979,-3.556407136822016,1.06128117159872,-0.08661857551020458
16.900000000000002,-0.095456988509174,-0.4948159281656248,0.1783621504345413,-3.5512832647500936,0.7297023522097901,-0.08586453199144481
17.0,-0.0760983092892709,-0.4979249866565308,0.071514958678897,-3.554955938623002,1.0049531907031757,-0.08730480569991278
17.1,0.0188325184126331,-0.5006280887066697,-0.0041790663262886,-3.5659078338649097,0.9774448177626612,-0.08975479416235713
17.2,0.0850680785287237,-0.5038486216769517,-0.1936665593726529,-3.5783603435031996,1.0647181386384772,-0.09287646627370622
17.3,-0.0262946196990984,-0.508784193954404,-0.2891531931737152,-3.5897001071163928,0.9374933538960298,-0.09612497552897963
17.400000000000002,0.1288288938263815,-0.5151959047803099,0.0747511066390385,-3.5987447767694536,0.9428907782243556,-0.10248497105793938
17.5,-0.0470075881728812,-0.5223695451423533,-0.0100459602574467,-3.602277585173473,1.0213099998709152,-0.10803851190149677
17.6,-0.1382844652467523,-0.5299455355723262,0.0013111671557338,-3.600673656246851,0.9267259309974798,-0.11087782955434713
17.7,0.0270384175543503,-0.5400343341909201,0.0717584383070648,-3.597602305548299,0.9621902509788208,-0.11294901008738133
17.8,-0.0059329971149917,-0.5479778542396891,0.0650053514828718,-3.595796621003208,0.9891903967183452,-0.11347787113925531
17.900000000000002,-0.0652156209863008,-0.5545994512552912,-0.0292750650547159,-3.596967378237455,0.9502382574078274,-0.11012717281638024
18.0,0.1166471324683799,-0.5597530054937457,0.084923816081084,-3.6059361507781293,1.0102444634870953,-0.10518043786754148
18.1,-0.1278955543242444,-0.5615865924317464,-0.0396033998675388,-3.616852573094782,1.0134798638703597,-0.09867254141729759
18.2,-0.0622363770060582,-0.5607451019120709,-0.1332391238679635,-3.626595918018234,0.9015220509368356,-0.09310168486239843
18.3,-0.0042674110932523,-0.5576878454448572,0.0875300511512019,-3.6331297204316613,0.9892848443129302,-0.09069512785284103
18.4,0.0704046257009044,-0.5520864159024359,-0.11468873145886,-3.633865271855312,1.0415142705308624,-0.09198687432370534
18.5,-0.0989826990635373,-0.5435606205318044,-0.0548883977116065,-3.6283577637133613,0.934922007472073,-0.09516820123796227
18.6,0.1340692740379007,-0.5353576919740308,0.1467872291076072,-3.61954426422206,1.0169464335671794,-0.10005415704450635
18.7,0.0022838012618965,-0.5296656644273021,0.0154784568678401,-3.607966152217278,0.9528171798752924,-0.10542223039017228
18.8,0.0403970043170061,-0.5264561838452477,0.099739188183256,-3.597900724115139,0.7716181972994678,-0.10882300599092434
18.9,0.1371047756830351,-0.5276364901603485,0.0028215364671674,-3.59236523007623,0.9723397179145032,-0.11128990727410451
19.0,-0.0494662450695375,-0.5309455800660243,-0.0161071319388335,-3.592783956988602,1.0638423505525234,-0.11189433061662543
19.1,-0.0742629792436769,-0.5336234342048929,-0.0018954734438357,-3.594775934812237,0.9556189258536634,-0.11041137557197994
19.200000000000003,-0.0527609105411277,-0.5365441211197735,0.03491156979378,-3.597340182309541,1.0276437677552963,-0.108943823231557
19.3,0.1881445177554811,-0.5395516647086833,0.0511275107917175,-3.599580100513504,0.9856034250241512,-0.10703321161491373
19.4,0.1488056307845105,-0.5422327554920734,-0.0536312857615326,-3.6009310788887756,0.8139051755119024,-0.10299100371129916
19.5,0.0173114958393994,-0.5442186990877136,-0.1398966110514356,-3.601484693958173,0.9060711710757526,-0.09674469808141951
19.6,-0.0631154904974135,-0.5488457219120081,0.0276509676357144,-3.5999147401650102,1.066083525887641,-0.0886884504628529
19.700000000000003,-0.1093063371522243,-0.5543208957999469,0.1291500379268049,-3.597415267914727,1.055060768322921,-0.07839474810020848
19.8,-0.0470680881251547,-0.5593651786285998,0.025499026807183,-3.5960515430523268,0.9827549816200946,-0.06581686476305468
19.9,0.0693843349490051,-0.561918498181303,-0.0392593450359507,-3.596672688275822,1.085004304244589,-0.05475050998276784
20.0,0.0154224356755929,-0.5612393531772142,-0.0549769491634545,-3.5986888582859247,1.0473042995965864,-0.04493659128631985
20.1,0.0248091318877817,-0.5567779853047554,0.1157011501975596,-3.601938344113067,1.0799511385403755,-0.04025435899158068
20.200000000000003,-0.1975356575911597,-0.5509686468840728,0.0796909336690485,-3.606234028495064,0.992425754219338,-0.04203030837328317
20.3,0.1005305110100209,-0.5437392043362614,0.0373230891233781,-3.611615815036822,1.0393469207263188,-0.05281180963158825
20.4,-0.0194498916422768,-0.5389086095454045,-0.1222314956215965,-3.616293048315086,0.971635299844851,-0.06569929587075653
20.5,0.0510911795944531,-0.5364575894938253,0.0507668805861412,-3.6194701800299507,0.861529787781097,-0.07701090747724829
20.6,-0.1082024157694863,-0.5364061767334334,-0.0414621979376941,-3.6213321702613315,1.1666105465713776,-0.08368946125120574
20.700000000000003,-0.1450868303581985,-0.5365040623483499,0.0141675356892944,-3.6223692890863455,0.8819846055098304,-0.08352068392785066
20.8,0.1429163643750707,-0.5363807365233605,-0.0746062274355081,-3.622556542292885,0.9211347722153076,-0.07591747871292694
20.9,0.1168951184852465,-0.5362152778316749,0.1309209143729998,-3.6212482640964176,1.0687783515398213,-0.06043186912661222
21.0,-0.0409932373130359,-0.5369922894298474,-0.0363233346651599,-3.618291416234957,1.1190930774729055,-0.04175650208486537
21.1,0.0378425952986911,-0.5368937977953181,0.0270043361188054,-3.6135595603849344,1.0708039320270806,-0.027528252716503148
21.200000000000003,-0.0216944802552848,-0.5337842648382615,-0.1198994686904206,-3.6070232638510085,1.1107390346989283,-0.022182702712267473
21.3,0.0106534846069364,-0.5288670386108171,0.0488560333909916,-3.6012281052704123,1.0661325803917143,-0.03007979378394286
21.4,0.066255207626686,-0.5233599177650402,0.1690932762103646,-3.5967400852351936,0.9473184087365696,-0.043027403420146666
21.5,0.0028301698846899,-0.5192667299677569,0.0205636020201383,-3.595572853154672,0.8603847915918635,-0.05693010574415712
21.6,0.1080948736042464,-0.5186039883149814,0.0666466632014747,-3.5985636795593354,1.000952436006841,-0.0671651240904909
21.700000000000003,0.172452061192199,-0.5237496263233357,-0.1309774639842395,-3.604686671239704,0.9292010816786896,-0.07185143936802332
21.8,0.0072287879111264,-0.5357782809188916,-0.1223264866157914,-3.612202836715759,1.0881171424363751,-0.06997485595934319
21.9,-0.0809120743462538,-0.5504915773921263,-0.0425531208511248,-3.619095875610914,1.097049388338208,-0.061500064308438476
22.0,-0.1581697120300964,-0.5650078971730574,0.0756822829571949,-3.624033699618783,0.9893095032331786,-0.05360674454171413
22.1,-0.2000755189343774,-0.5738476655831346,0.0701588251398433,-3.6296273351347415,1.2041922593202343,-0.050972099922977424
22.200000000000003,-0.1025550013657861,-0.5740101148406366,-0.0121760166375277,-3.634959585158006,0.9216157955450291,-0.05446376099189912
22.3,0.1197024996800496,-0.5691919010875466,-0.2224452705821027,-3.642923401559579,0.9664417551777228,-0.06246661476557842
22.4,-0.0593309123484618,-0.5604237983085261,0.0548947318825333,-3.6546842939869038,0.9775750853732844,-0.07051481408029167
22.5,0.219887482686366,-0.5538587850607228,-0.0717990718531823,-3.6699263448962283,0.9916974713545056,-0.07483260147990738
22.6,-0.0886075547598763,-0.5518659427398878,-0.1080846213560957,-3.685059269582581,0.9116414891358344,-0.07269788687243092
22.700000000000003,-0.0008048078988236,-0.5567368501606209,-0.1441903287126614,-3.697632218349642,1.0846001454611176,-0.06645979163952985
22.8,-0.1191281463004532,-0.5673671839154855,-0.0814929458964318,-3.704539447724949,1.0759118918786723,-0.05848040710734327
22.9,-0.0305746783096897,-0.5786146136932407,-0.1171662892551521,-3.704321632256363,1.0843200133695052,-0.052153793354089706
23.0,-0.0739501487221605,-0.5882126405426351,-0.0355072900208213,-3.6975309712542557,1.0391950317092538,-0.05066894805425097
23.1,-0.1294532707163713,-0.5939899875110268,0.1986872615285907,-3.687822581281415,0.9864808219073578,-0.05452108199490305
23.200000000000003,-0.1358337261301565,-0.5956182624351003,-0.0302241626367033,-3.6750532735675385,0.9721781645631392,-0.060903701520051326
23.3,0.0400770311906069,-0.5956475016154694,-0.1944084479514225,-3.662476356075244,0.9938707592943749,-0.06602822018028276
23.4,-0.031849149149216,-0.5959366397251057,0.0139305244456324,-3.6521625269123525,0.9413580794760446,-0.06988134391630485
23.5,-0.0550658860206366,-0.5954797688157807,-0.0094880914141335,-3.6449101405814837,1.005777638635904,-0.07196874143965633
23.6,-0.0327825338902267,-0.5935734585807433,0.0415177421632394,-3.6397323229307137,1.1994851632694954,-0.07311586742267032
23.700000000000003,-0.1207537633570825,-0.5885091956565651,0.0470921361864575,-3.63584962696107,1.0961835323663751,-0.07446439755724918
23.8,0.0178863618396476,-0.5841107137898811,-0.2313612775237707,-3.6331937265912075,1.0062037936267538,-0.07576805740902755
23.9,0.0121420999281013,-0.5794536966009525,0.076365822367735,-3.631557005647495,0.8774621173887034,-0.07633160059975037
24.0,-0.0785093986817668,-0.571346357374041,-0.0714307383868139,-3.6310200842032687,0.9620797863680508,-0.07577694768239907
24.1,0.0456194415884117,-0.5640911084177032,-0.0243365152707057,-3.6314024752549408,1.0110588300109062,-0.07215384962814754
24.200000000000003,0.017248496118875,-0.5592373588360251,0.059559715935589,-3.633368932691349,1.0653147834357242,-0.06441933591341822
24.3,-0.0793250550630715,-0.5572677862456396,0.1078705985381955,-3.6352971652480655,1.0408518992293658,-0.053402094617670634
24.4,-0.2319465955357377,-0.5600377195594112,-0.0636374066756735,-3.6361447488907226,1.107132170499706,-0.04261372143391248
24.5,0.0776847041875099,-0.5646709333549007,-0.0338733069323763,-3.6354869091890394,1.0390484652867638,-0.03251205243914494
24.6,-0.0041628991309139,-0.5706813956423198,-0.1283386526589675,-3.613239089587325,1.093473833898937,-0.026782156621699596
24.700000000000003,-0.0566854070117209,-0.5767597976634644,0.0744472447378366,-3.5829643690143196,1.0563665329327734,-0.02708953497745218
24.8,-0.0648316619857094,-0.5855045519055684,-0.0039740215304386,-3.5708328759365924,1.1264274703794976,-0.030747430502010915
24.9,-0.1154704043230747,-0.5974844871118161,0.2558124506769439,-3.6041330595341785,0.7455169515157317,-0.03403654899055128
25.0,-0.1537496573034763,-0.6140566579150234,-0.0390398227282697,-3.7219641594765633,1.025939494779283,-0.036122620654112064
25.1,-0.0959768077134678,-0.6489337772158181,-0.8683641389127722,-3.9492672850211483,1.0181149855750595,-0.03948871574798358
25.200000000000003,-0.2086738236932456,-0.7007931314167799,-1.7424047756518637,-4.2985291232588,1.0166668217094064,-0.04520520274092292
25.3,-0.477398001686536,-0.7673660483588043,-2.383548169012532,-4.767706719573991,1.086654937218979,-0.05238110224656341
25.4,-0.4944037641692348,-0.8534920896351167,-3.570957767476506,-5.343377020572035,1.1008884676223845,-0.06674587392997954
25.5,-0.8249492822789338,-0.9529595541531473,-4.054750691440103,-5.998082041099604,0.8910267379971061,-0.08475976296691828
25.6,-0.705776405118058,-1.062242015181705,-4.971337656831448,-6.687351781108721,0.7976592270556345,-0.10531771781254032
25.700000000000003,-0.9301784187405824,-1.1762407721793817,-5.647965291691827,-7.409313303002323,0.7972154508401442,-0.12547487055280906
25.8,-1.1066724880414704,-1.2897132476006754,-6.491295736041221,-8.145939383376247,0.981120050632111,-0.14190878595088383
25.9,-1.1074388602175576,-1.3955829755697176,-7.33188964488642,-8.881239174278457,0.9315379847941648,-0.15215366691211246
26.0,-1.257726924773625,-1.4936718843928272,-8.004886779369505,-9.629348358275227,0.8106072839007321,-0.15682641398151292
26.1,-1.4048733324393727,-1.5948229988779863,-8.968450682454048,-10.389777001541924,0.9446381495669888,-0.16172798902892566
26.200000000000003,-1.3358820418185895,-1.6950137581206497,-9.410664451593956,-11.158941539552057,0.9903837123001538,-0.16846333551861425
26.3,-1.4355739240845544,-1.794815191515548,-10.31020903410652,-11.932160646706937,0.8313703378649427,-0.17725202557156133
26.4,-1.6399255342991597,-1.906034797498147,-11.301466983556244,-12.705609757387748,0.8921311704104803,-0.19356713557016764
26.5,-1.89690596964389,-2.026916549085025,-12.066904095976255,-13.484467104347999,0.7818372524077737,-0.21269379841499556
26.6,-1.9148991603617207,-2.1530242264951513,-12.762489052041207,-14.272423112373218,0.6913500534451251,-0.23021398847303587
26.700000000000003,-2.0881696400167,-2.279238169190285,-13.518059659392735,-15.070374250710193,0.6868911540326919,-0.2424714637427128
26.8,-2.295011258926288,-2.405554228619205,-14.31829800002101,-15.86627651818177,0.8144089622428102,-0.25387339273205417
26.9,-2.3217454100665385,-2.5293780963025654,-15.266504097342194,-16.66100609712312,0.9512522600997554,-0.2656907805523934
27.0,-2.328611137841694,-2.654053091663971,-16.065110304890737,-17.466318527938398,0.8161962757671418,-0.27741201530118215
27.1,-2.4916019540926717,-2.777220354850576,-16.776650615383492,-18.2751924579991,0.6419874883178605,-0.2925013838100902
27.200000000000003,-2.769849477630145,-2.896272171904145,-17.662794342643757,-19.08217715730232,0.9204802056712524,-0.30751567838850036
27.3,-2.894077472625494,-3.0165528772986603,-18.46874764918304,-19.885615614362514,0.6181510295752008,-0.319955978112575
27.4,-2.909905975556468,-3.1420375132462244,-19.28048218910502,-20.68617858953217,0.5173222349490502,-0.3275544482381579
27.5,-2.986991840750829,-3.271672464976814,-19.87939461379005,-21.490914147275483,0.7013587414591903,-0.3303061528168417
27.6,-3.13020225587265,-3.3932058624715236,-20.86629891921996,-22.295512007529044,0.810599192871278,-0.32765307399383936
27.700000000000003,-3.418155765426169,-3.5063832767753644,-21.644047347929217,-23.09253056125764,0.7966964670306776,-0.32148707271430527
27.8,-3.334246158781185,-3.6222509383801302,-22.514656053211823,-23.883465297195063,0.8608163259829598,-0.31704723876620955
27.9,-3.606485658061031,-3.744322640360798,-23.1903587542256,-24.673903352305288,0.7546466832977613,-0.31752689592083305
28.0,-3.52289215042514,-3.869440660382001,-23.91979926842713,-25.464312613107865,0.7006007958519115,-0.32360829141756153
28.1,-3.740459624536263,-3.9926019597827636,-24.65232911219353,-26.24706706562809,0.7294796442034154,-0.33527260850399065
28.200000000000003,-4.108186928614566,-4.112838232991991,-25.56548789209855,-27.027539298243276,0.569110509170917,-0.34741812150160467
28.3,-3.880169133271205,-4.2302036020910005,-26.32102453094861,-27.816310553041802,0.7151116791453338,-0.3614646581225095
28.4,-4.288621649771775,-4.346758077991582,-27.17612324214929,-28.610073251601243,0.6677684989844866,-0.3768708695847342
28.5,-4.209015957571404,-4.461330569726108,-27.89192678992716,-29.40858420296461,0.6217412295919449,-0.39450347828728827
28.6,-4.131931769075227,-4.5666241021066485,-28.78545850037011,-30.213187733259538,0.8108647070997603,-0.41427751219892395
28.700000000000003,-4.413712458290424,-4.6713900670672555,-29.6252931314445,-31.017560522528925,0.5553611562915185,-0.43541735371817936
28.8,-4.557793080924739,-4.781675217891359,-30.261184802523683,-31.822220196349612,0.2697106994651962,-0.4549373313106577
28.9,-4.678168053116535,-4.893576090345987,-31.204732547518784,-32.629732030738005,0.5102741274506765,-0.4730141223919596
29.0,-4.693337740002607,-5.009432347848144,-32.065081838349,-33.43188371597635,0.5144041993929171,-0.49051142291638894
29.1,-5.052032804157837,-5.134257624872294,-32.7228091428034,-34.224821715364016,0.5783840080083319,-0.50664933121588
29.200000000000003,-4.969301661608106,-5.260638671304648,-33.54422097103654,-35.013819536684906,0.5552252296481526,-0.5216647802798041
29.3,-5.176589325105888,-5.384735777041874,-34.35644884629156,-35.804166396507455,0.5123434414763517,-0.5382437208023947
29.4,-5.301646145258668,-5.514335074323965,-34.98019992908302,-36.61263240067395,0.3806342392416363,-0.556381585004428
29.5,-5.54799856363362,-5.644216256428299,-35.90695153237891,-37.43690165893132,0.4056615016012597,-0.5743249006193052
29.6,-5.48284467634157,-5.7630093401310685,-36.79226821634635,-38.200007036641665,0.4398003133317031,-0.586333926274926
29.700000000000003,-5.642982394841192,-5.878215875955368,-37.6101401715888,-38.947184479293455,0.4781343352886699,-0.5961555488469896
29.8,-5.833475504002937,-5.989835863901186,-38.53662844407333,-39.67843398688659,0.4825557112064415,-0.6037897683354942
29.9,-5.8445262027754215,-6.097869303968524,-39.08215630965093,-40.393755559421066,0.4508012973574916,-0.6092365847404402
30.0,-5.999055578948081,-6.20231619615738,-40.00415582611856,-41.09314919689689,0.4363645003146296,-0.6124959980618271
